stim	onset	rt	response	error_onset	error_duration
2	0.5498056256828932	1.7440735830514313	0	0.5498056256828932	1.7440735830514313
1	6.589764152437965	1.4166250523867348	1	nil	nil
3	10.629736333831715	1.5599437772580131	1	nil	nil
4	18.669710598662277	1.9764617992959757	1	nil	nil
1	22.70969265482927	1.6083472593472834	1	nil	nil
1	28.749667790933927	1.400356127493069	1	nil	nil
4	36.78962088350636	1.6557089934731266	1	nil	nil
1	42.82959705431222	1.5843028123399563	1	nil	nil
1	48.869555647239395	1.6396280020853737	1	nil	nil
4	54.90952880718669	1.608151905473278	1	nil	nil
2	60.949504872717625	2.1680790292666643	1	nil	nil
1	66.98944690141252	1.7120788909051043	0	66.98944690141252	1.7120788909051043
2	71.02947284512538	1.9514485807958408	0	71.02947284512538	1.9514485807958408
2	79.0694124805741	2.7432992951607957	0	79.0694124805741	2.7432992951607957
3	83.1094031843113	1.8473103570322564	1	nil	nil
2	91.14934760825781	1.5353152628367752	0	91.14934760825781	1.5353152628367752
1	97.18933346734957	1.4312529602266295	1	nil	nil
2	101.2293120133545	2.2151872166350586	0	101.2293120133545	2.2151872166350586
4	107.26928914667315	2.127136842157597	1	nil	nil
1	115.30924470869013	1.3989639228384476	1	nil	nil
2	123.34919789450487	1.3110824542054615	0	123.34919789450487	1.3110824542054615
4	129.38917171016328	2.126850979056144	1	nil	nil
3	137.42911684697083	2.615452483983063	0	137.42911684697083	2.615452483983063
3	143.46911476754303	2.2708260199115102	0	143.46911476754303	2.2708260199115102
1	151.50906521320667	1.8948177854199457	1	nil	nil
3	157.54903863784511	1.4947119040689358	0	157.54903863784511	1.4947119040689358
2	165.58900302489474	1.6471831600474616	0	165.58900302489474	1.6471831600474616
3	169.6289832913908	2.134583564102286	1	nil	nil
2	177.66895650948936	1.5184699796463974	0	177.66895650948936	1.5184699796463974
3	181.70894027712347	1.7265230611892548	0	181.70894027712347	1.7265230611892548
3	187.7488991437649	2.1909935742287416	1	nil	nil
4	191.78888753145748	1.8545274055286427	0	191.78888753145748	1.8545274055286427
1	199.82884180009842	1.5750001985179551	1	nil	nil
4	207.86878709331359	1.3183372512257847	0	207.86878709331359	1.3183372512257847
4	215.90877760354488	1.6702171046435978	0	215.90877760354488	1.6702171046435978
3	219.9487453152733	2.0141793150123704	0	219.9487453152733	2.0141793150123704
4	223.988731209457	1.6947317959875363	1	nil	nil
2	232.0286927300258	1.8147687805176247	1	nil	nil
4	236.06867368531857	2.1021285234464813	0	236.06867368531857	2.1021285234464813
3	244.10865023010047	2.7658936815087145	1	nil	nil
1	252.14859033477387	1.5979174144513308	1	nil	nil
4	258.188567368833	2.4705549835070997	0	258.188567368833	2.4705549835070997
1	262.2285549263579	1.3738691825665228	1	nil	nil
4	268.2685351728014	2.0457953789391468	1	nil	nil
1	274.30850421199375	1.2944021636476464	1	nil	nil
3	282.34846535056477	1.6223635869619102	1	nil	nil
1	290.38842516267505	1.5656379209731313	1	nil	nil
4	298.428392410191	2.173486500767467	0	298.428392410191	2.173486500767467
1	304.4683602221803	1.358211967234638	1	nil	nil
2	310.50832517370327	1.4613952887038977	1	nil	nil
1	314.5485107650966	1.0692552301507021	1	nil	nil
2	322.60161285956383	1.6640922126744044	1	nil	nil
4	328.6415902726112	2.376543762219626	0	328.6415902726112	2.376543762219626
3	332.68155811969245	1.8405992741054433	0	332.68155811969245	1.8405992741054433
2	336.7215399532779	1.4239206749616642	0	336.7215399532779	1.4239206749616642
1	344.7615030920706	1.0318063756403717	1	nil	nil
2	350.81481599975905	2.7943679553636684	1	nil	nil
1	354.8547853868595	1.1384176300143736	1	nil	nil
2	358.9081173452714	1.541591918908125	0	358.9081173452714	1.541591918908125
2	364.94807451849374	2.525621413889894	1	nil	nil
1	370.9880626455051	1.3409103841022443	1	nil	nil
3	375.02803319062787	2.0928619256264938	1	nil	nil
3	381.0680050632154	2.8928067987444592	1	nil	nil
2	387.10797560934043	2.988709290247243	1	nil	nil
3	395.147948665016	1.74866647449835	0	395.147948665016	1.74866647449835
4	399.18792845927874	1.7087128204611872	0	399.18792845927874	1.7087128204611872
2	407.2278899076591	1.5006134601308077	0	407.2278899076591	1.5006134601308077
2	415.2678492625755	1.957084318069974	0	415.2678492625755	1.957084318069974
3	419.30781814736474	1.5806496576069549	1	nil	nil
3	425.34779558146784	2.173019522954746	1	nil	nil
4	429.38779612087546	2.9009467429987126	1	nil	nil
4	437.42775067526236	2.380439313608804	1	nil	nil
1	441.46771942469877	1.3003156067334203	1	nil	nil
3	447.50770798484064	2.4688098015822106	1	nil	nil
3	455.54766276481587	1.4287263868700393	0	455.54766276481587	1.4287263868700393
4	459.58764699565836	1.716305366006054	0	459.58764699565836	1.716305366006054
4	467.62760249150324	2.5006708910259476	0	467.62760249150324	2.5006708910259476
3	473.6675839471018	1.356037562036363	1	nil	nil
2	481.7075403904191	1.436655170996346	0	481.7075403904191	1.436655170996346
4	487.74748533071306	2.3639655119859526	1	nil	nil
1	491.7874967374846	1.0365938419272425	1	nil	nil
4	495.8408166013296	1.7106227995063819	1	nil	nil
4	501.88078034670525	1.7265122058579436	0	501.88078034670525	1.7265122058579436
1	509.92074292603684	1.2464510743047867	1	nil	nil
3	513.9607089714154	1.5423478970105862	0	513.9607089714154	1.5423478970105862
4	522.0006748353198	1.9423893411803874	0	522.0006748353198	1.9423893411803874
1	528.0406587994667	1.4622539488063921	1	nil	nil
2	532.0806196292324	1.3669887967598697	0	532.0806196292324	1.3669887967598697
1	536.120617951854	1.1582826236481196	1	nil	nil
1	542.1606045087683	1.6221989883597416	1	nil	nil
2	546.2005738778207	2.8466516939206485	1	nil	nil
1	550.2405699235005	1.094485001854082	1	nil	nil
4	556.293870107982	1.1133711537113413	0	556.293870107982	1.1133711537113413
2	562.3471739289544	1.2035867654576577	0	562.3471739289544	1.2035867654576577
1	570.3871306580177	1.427243964747504	1	nil	nil
2	576.4271089944759	1.219160756574638	0	576.4271089944759	1.219160756574638
1	580.4670773378521	1.027191129849598	1	nil	nil
2	586.5203948385288	2.462486135814288	1	nil	nil
2	592.5603406150049	1.2698113556380122	0	592.5603406150049	1.2698113556380122
3	596.6003472272632	1.9497096642235192	1	nil	nil
1	600.6403354675704	2.1181928693895316	0	600.6403354675704	2.1181928693895316
3	606.6802903397866	2.6536744733757587	1	nil	nil
2	610.7202788387694	2.0542343666975285	1	nil	nil
2	618.7602505800141	2.5255554757923164	1	nil	nil
3	622.8002159787047	2.5015233699959936	1	nil	nil
4	626.8401877871247	2.2860140857637816	1	nil	nil
3	632.8801771202843	2.197401769618409	1	nil	nil
3	640.9201456822302	1.9092976348265438	1	nil	nil
2	644.9601278767586	1.1572912361261842	0	644.9601278767586	1.1572912361261842
3	649.0000848384279	1.8458725112541288	1	nil	nil
4	657.0400573587067	1.7171837515916195	1	nil	nil
4	665.0800202207765	2.9898181102671515	1	nil	nil
2	669.1200008602455	1.2138141038112735	0	669.1200008602455	1.2138141038112735
3	675.1599786372435	2.1010074253799758	1	nil	nil
4	681.1999596777587	2.4531130270006543	0	681.1999596777587	2.4531130270006543
3	689.2399199831561	1.9895655721429648	0	689.2399199831561	1.9895655721429648
3	697.2798749646581	1.3255162383820789	0	697.2798749646581	1.3255162383820789
4	705.3198355287304	1.941323383030067	1	nil	nil
1	709.3598078725472	0.9807709461692866	1	nil	nil
4	717.4131157942229	2.8473124224219646	1	nil	nil
