Condition	Onset	Duration	Response	Error_onset	Error_duration
2	0.6399837054711952	1.3031463008453557	1	nil	nil
1	6.679958056527539	0.959589879585792	1	nil	nil
3	10.733285963364324	1.0896900369966716	1	nil	nil
4	18.78658577888291	0.916400455188068	1	nil	nil
1	22.839872105194445	0.9434576404414656	1	nil	nil
1	28.893220279930574	0.9860260339487468	1	nil	nil
4	36.94649564162455	0.9487940755370801	1	nil	nil
1	42.99983336408013	0.9588284271949306	1	nil	nil
1	49.05754894975871	1.0774812711176764	1	nil	nil
4	55.10643284572734	1.0685826356791495	1	nil	nil
2	61.15975780286544	1.198521734727592	1	nil	nil
1	67.19973199450556	0.96702823068199	1	nil	nil
2	71.25305742588148	1.6171597980730894	1	nil	nil
2	79.29300130841489	1.3376692116423783	1	nil	nil
3	83.33301756985725	1.129424707486578	1	nil	nil
2	91.38632063084651	1.164101301396613	1	nil	nil
1	97.4262774010167	1.0122123231633395	1	nil	nil
2	101.47959604066614	1.2461871203843202	1	nil	nil
4	107.51956060417683	1.39098852304528	1	nil	nil
1	115.55953686922862	1.1980137839761937	1	nil	nil
2	123.59951126640522	1.0305435266043332	1	nil	nil
4	129.65281677177427	1.1692146773077638	1	nil	nil
3	137.69277509199014	1.265072706764613	1	nil	nil
3	143.73276827219047	1.112525592797283	1	nil	nil
1	151.78609290849113	1.003104873720531	1	nil	nil
3	157.83936705100314	1.3896653756305568	1	nil	nil
2	165.87934731649602	0.9655956516508013	1	nil	nil
3	169.93266763151814	0.8887062763812992	1	nil	nil
2	177.9859907127602	1.1067918537382866	1	nil	nil
3	182.03931717883665	0.9579609300274115	1	nil	nil
3	188.09261775133086	1.3125736953447813	1	nil	nil
4	192.13257969400138	0.9520861949688424	1	nil	nil
1	200.18590089533677	0.9871977421069005	1	nil	nil
4	208.23920638666914	1.1891549875174405	1	nil	nil
4	216.2791764074234	1.1335974954631638	1	nil	nil
3	220.33247396204092	1.3921824712499529	1	nil	nil
4	224.37247992761104	1.1042215011179906	1	nil	nil
2	232.4257775233359	1.0828652874001818	1	nil	nil
4	236.479098340669	0.9570034560201748	1	nil	nil
3	244.53241241941464	1.2955279900540972	1	nil	nil
1	252.57237031853128	1.0955262685608886	1	nil	nil
4	258.6256918497277	1.3140451869378467	1	nil	nil
1	262.66565473385526	1.1380712519678582	1	nil	nil
4	268.7189959063155	1.301096237179081	1	nil	nil
1	274.7589521711666	1.245157827930825	1	nil	nil
3	282.7989221708658	1.2769301707455725	1	nil	nil
1	290.8389037267268	1.15685259226575	1	nil	nil
4	298.87886812580837	1.2048344338722927	1	nil	nil
1	304.9188595103219	1.3328155185033665	1	nil	nil
2	310.95881875595296	0.9322720189693428	0	310.95881875595296	0.9322720189693428
1	315.01214143815355	0.8954148387292662	1	nil	nil
2	323.06543164960544	1.817543907598747	1	nil	nil
4	329.10543730035397	1.161915598712767	1	nil	nil
3	333.1454041638676	1.3538093554175248	1	nil	nil
2	337.1853782251676	0.9939667652572552	0	337.1853782251676	0.9939667652572552
1	345.23870752363655	0.8764080028875014	1	nil	nil
2	351.2920159105265	2.0465718645666584	0	351.2920159105265	2.0465718645666584
1	355.3319992119432	1.0625492124443099	1	nil	nil
2	359.3853081211962	1.401672293686488	1	nil	nil
2	365.4252825895587	1.3850984058392442	1	nil	nil
1	371.4652712519676	0.9694642256290535	1	nil	nil
3	375.5185951944575	1.700096098817994	1	nil	nil
3	381.558573200052	1.4761733995728719	1	nil	nil
2	387.598567135223	0.9320221327666331	1	nil	nil
3	395.65186376843553	1.166536249611454	1	nil	nil
4	399.69183912912695	0.942639378778722	1	nil	nil
2	407.745152290478	0.9686759191488363	1	nil	nil
2	415.79844696558007	1.331273853758148	1	nil	nil
3	419.83842789079495	0.7952076228957594	1	nil	nil
3	425.8917420948676	0.9899787375047708	1	nil	nil
4	429.94507125597806	0.664961867474176	1	nil	nil
4	437.9983478809693	0.9950570930127469	1	nil	nil
1	442.0516884809351	0.8942012642999089	1	nil	nil
3	448.10500533793197	1.6568369464303032	1	nil	nil
3	456.1449637002577	0.7522795837135163	1	nil	nil
4	460.19828757356686	1.1073382147403663	1	nil	nil
4	468.25160450375483	0.6299155906917804	1	nil	nil
3	474.30490469425195	0.7361205085271649	1	nil	nil
2	482.35821814134897	1.0592133378115705	0	482.35821814134897	1.0592133378115705
4	488.41153219502894	1.0377149821033527	0	488.41153219502894	1.0377149821033527
1	492.4648540500707	1.1283752654428554	1	nil	nil
4	496.51816705300826	1.514538607766326	1	nil	nil
4	502.5581339265482	1.0590554196451194	1	nil	nil
1	510.61149894925757	1.0449160107882562	1	nil	nil
3	514.6647628821222	1.520138882483252	1	nil	nil
4	522.7047216475	1.4320752945186541	1	nil	nil
1	528.7446919590129	1.2160334823890935	1	nil	nil
2	532.7846907749224	1.487440852625241	1	nil	nil
1	536.824687175528	0.9999634385746958	1	nil	nil
1	542.8779796027632	0.9461723247675309	1	nil	nil
2	546.9312871945779	1.4452104091678848	1	nil	nil
1	550.9712789721173	1.189207408335733	1	nil	nil
4	557.0112729524058	1.837199879686068	1	nil	nil
2	563.0512485968377	1.2769226481113947	1	nil	nil
1	571.0912205456241	1.0204535838538504	1	nil	nil
2	577.1445200713863	1.5676259146371194	1	nil	nil
1	581.1845153681106	0.9994494179809408	1	nil	nil
2	587.2378153149721	1.5136497879466333	1	nil	nil
2	593.2777812410391	1.802099389406294	1	nil	nil
3	597.3177794012372	1.2420850259177314	1	nil	nil
1	601.3577572193424	1.265990013936289	1	nil	nil
3	607.3977479932623	1.473474184621864	1	nil	nil
2	611.4377157470999	1.1695297346072948	1	nil	nil
2	619.4777165381645	0.9534300063164665	1	nil	nil
3	623.5310265332516	0.924359185474259	1	nil	nil
4	627.5843259196502	0.9347487883374015	1	nil	nil
3	633.6376666168701	1.201283982193445	1	nil	nil
3	641.677620464412	1.1051433230732073	1	nil	nil
2	645.7309450235114	0.8277095649643798	1	nil	nil
3	649.7842654708788	0.9509929465905316	1	nil	nil
4	657.8375499283129	1.1290810004111336	1	nil	nil
4	665.8908622775443	0.8995554607527083	1	nil	nil
2	669.9441642867885	1.2388588265371254	1	nil	nil
3	675.9841696818696	1.0141842970153903	1	nil	nil
4	682.0374653124654	0.993341096261247	1	nil	nil
3	690.0907692728019	1.1078925676015388	1	nil	nil
3	698.1440767613472	1.0539858681158876	1	nil	nil
4	706.1973903768835	1.2169780918195556	1	nil	nil
1	710.237353083548	1.544451362054815	1	nil	nil
4	718.2773347807779	1.2169678891907552	1	nil	nil
